Folder: data

Note: README.md
# Bộ Dữ Liệu Về Quan hệ Nhân Quả Giữa Hợp Kim Đồng Với Hiệu Suất Dẫn Điện
       
**Giới Thiệu**             
Bộ dữ liệu này chứa thông tin về các hợp kim đồng (Cu) với các thành phần hóa học khác nhau (Ni, Si, Be, Ti, Mg, v.v.), điều kiện xử lý (nhiệt độ, thời gian), và hiệu suất dẫn điện (%IACS).                
Mục tiêu của bộ dữ liệu là hỗ trợ nghiên cứu tác động nhân quả của thành phần hóa học và điều kiện xử lý lên hiệu suất dẫn điện, một tính chất quan trọng trong khoa học vật liệu.        
*Nguồn dữ liệu:* [Dataset of mechanical properties and electrical conductivity of copper-based alloys]( https://springernature.figshare.com/articles/dataset/Dataset_of_mechanical_properties_and_electrical_conductivity_of_copper-based_alloys/23735373?file=41670945)             
           
**Cấu Trúc Bộ Dữ Liệu**         
Dữ liệu được tổ chức dưới dạng các dòng, mỗi dòng đại diện cho một hợp kim cụ thể. Các giá trị được phân cách bởi dấu chấm phẩy (;). Các cột chính bao gồm:             

*Tên hợp kim:* Ví dụ, Cu-2.8Ni-0.7Si-0.17V, Cu-1.7Be, .v.v....                    
*Loại hợp kim:* Ví dụ, Cu-Ni-Si alloys, Cu-Be alloys, .v.v....       
*Thành phần hóa học:* Phần trăm khối lượng của các nguyên tố (Cu, Ni, Si, Be, Ti, Mg, v.v.).      
*Điều kiện xử lý:* Nhiệt độ (K), thời gian (giờ), và các thông số liên quan.        
*Hiệu suất dẫn điện:* Đo bằng %IACS (International Annealed Copper Standard).                 

![image](https://github.com/user-attachments/assets/39031b30-d82e-471f-aa13-a6c2208c8c4a)



Ví dụ: Cu-2.8Ni-0.7Si-0.17V;Cu-Ni-Si alloys;96.33;0;0;0;0;0;0;0;0;0;0;0;0;0;0;0;0;2.8;0;0;0;0.7;0;0;0.17;0;0;1223;2;75;Y;723;20;Y;167;;;37;https://doi.org/10.1007/s12540-013-4002-x        
Giải thích: Hợp kim chứa 96.33% Cu, 2.8% Ni, 0.7% Si, 0.17% V; xử lý ở 1223K trong 2 giờ; hiệu suất dẫn điện đạt 37% IACS, còn link là để giải là để giải thích cách họat động của dữ liệu (khi viết mô hình sẽ yêu cầu nó bỏ sau)               

**Mục Đích và Ứng Dụng**        
Bộ dữ liệu này được thiết kế để nghiên cứu mối quan hệ nhân quả giữa các yếu tố đầu vào (thành phần hóa học, điều kiện xử lý) và đầu ra (hiệu suất dẫn điện). Không giống như phân tích tương quan đơn thuần, suy luận nhân quả giúp trả lời câu hỏi: "Liệu sự thay đổi trong %Ni hoặc nhiệt độ xử lý có thực sự gây ra sự thay đổi trong hiệu suất dẫn điện không?"
Phương Pháp Double Machine Learning (DML)             
DML là một kỹ thuật tiên tiến kết hợp học máy và suy luận nhân quả để ước lượng tác động nhân quả không thiên lệch. Phương pháp này:        

+ Sử dụng một mô hình học máy để dự đoán biến điều trị (treatment), ví dụ: %Ni.          
+ Sử dụng một mô hình khác để dự đoán kết quả (outcome), ví dụ: %IACS.      
+ Kết hợp hai mô hình để kiểm soát ảnh hưởng của các biến nhiễu (confounders) như nhiệt độ hoặc thành phần khác.      
          
DML đặc biệt hữu ích khi dữ liệu có nhiều biến kiểm soát, như trong bộ dữ liệu này.

**Cách Sử Dụng Bộ Dữ Liệu Với DML**      
Dưới đây là các bước cơ bản để áp d

File: cleaned_data.csv
Alloy_Name,Alloy_Type,Cu,Al,Ag,B,Be,Ca,Co,Ce,Cr,Fe,Hf,La,Mg,Mn,Mo,Nb,Nd,Ni,P,Pb,Pr,Si,Sn,Ti,V,Zn,Zr,Solid_Solution_Temp_K,Solid_Solution_Time_h,Cold_Rolling_Reduction,Secondary_Treatment_YN,Aging_Temp_K,Aging_Time_h,Secondary_Mech_YN,Hardness_HV,Yield_Strength_MPa,Ultimate_Tensile_Strength_MPa,Electrical_Conductivity_IACS,DOI
Cu-0.1Ag–0.3Cr,Cu low alloyed,99.6,0.0,0.1,0.0,0.0,0,0.0,0.0,0.3,0.0,0,0,0.0,0,0,0,0,0.0,0.0,0,0,0.0,0.0,0.0,0.0,0.0,0.0,1223.0,1.0,0.0,N,,,N,85.0,,,45.0,http://dx.doi.org/10.1016/j.msea.2005.09.118
Cu-0.1Ag–0.3Cr,Cu low alloyed,99.6,0.0,0.1,0.0,0.0,0,0.0,0.0,0.3,0.0,0,0,0.0,0,0,0,0,0.0,0.0,0,0,0.0,0.0,0.0,0.0,0.0,0.0,1223.0,1.0,0.0,Y,673.0,1.0,N,92.0,,,50.0,http://dx.doi.org/10.1016/j.msea.2005.09.118
Cu-0.1Ag–0.3Cr,Cu low alloyed,99.6,0.0,0.1,0.0,0.0,0,0.0,0.0,0.3,0.0,0,0,0.0,0,0,0,0,0.0,0.0,0,0,0.0,0.0,0.0,0.0,0.0,0.0,1223.0,1.0,0.0,Y,673.0,8.0,N,120.0,,,78.0,http://dx.doi.org/10.1016/j.msea.2005.09.118
Cu-0.1Ag–0.3Cr,Cu low alloyed,99.6,0.0,0.1,0.0,0.0,0,0.0,0.0,0.3,0.0,0,0,0.0,0,0,0,0,0.0,0.0,0,0,0.0,0.0,0.0,0.0,0.0,0.0,1223.0,1.0,0.0,Y,723.0,0.5,N,124.0,,,66.0,http://dx.doi.org/10.1016/j.msea.2005.09.118
Cu-0.1Ag–0.3Cr,Cu low alloyed,99.6,0.0,0.1,0.0,0.0,0,0.0,0.0,0.3,0.0,0,0,0.0,0,0,0,0,0.0,0.0,0,0,0.0,0.0,0.0,0.0,0.0,0.0,1223.0,1.0,0.0,Y,723.0,4.0,N,144.0,,,82.0,http://dx.doi.org/10.1016/j.msea.2005.09.118
Cu-0.1Ag–0.3Cr,Cu low alloyed,99.6,0.0,0.1,0.0,0.0,0,0.0,0.0,0.3,0.0,0,0,0.0,0,0,0,0,0.0,0.0,0,0,0.0,0.0,0.0,0.0,0.0,0.0,1223.0,1.0,0.0,Y,823.0,0.25,N,115.0,,,81.0,http://dx.doi.org/10.1016/j.msea.2005.09.118
Cu-0.1Ag–0.3Cr,Cu low alloyed,99.6,0.0,0.1,0.0,0.0,0,0.0,0.0,0.3,0.0,0,0,0.0,0,0,0,0,0.0,0.0,0,0,0.0,0.0,0.0,0.0,0.0,0.0,1223.0,1.0,0.0,Y,823.0,2.0,N,120.0,,,84.0,http://dx.doi.org/10.1016/j.msea.2005.09.118
Cu-0.1Ag–0.3Cr,Cu low alloyed,99.6,0.0,0.1,0.0,0.0,0,0.0,0.0,0.3,0.0,0,0,0.0,0,0,0,0,0.0,0.0,0,0,0.0,0.0,0.0,0.0,0.0,0.0,1223.0,1.0,0.0,Y,823.0,16.0,N,103.0,,,86.0,http://dx.doi.org/10.1016/j.msea.2005.09.118
Cu-0.1Cr-0.06Zr,Cu low alloyed,99.84,0.0,0.0,0.0,0.0,0,0.0,0.0,0.1,0.0,0,0,0.0,0,0,0,0,0.0,0.0,0,0,0.0,0.0,0.0,0.0,0.0,0.06,1273.0,1.0,0.0,Y,473.0,1.0,N,78.0,,,59.0,http://dx.doi.org/10.1016/j.matlet.2017.04.039
Cu-0.1Cr-0.06Zr,Cu low alloyed,99.84,0.0,0.0,0.0,0.0,0,0.0,0.0,0.1,0.0,0,0,0.0,0,0,0,0,0.0,0.0,0,0,0.0,0.0,0.0,0.0,0.0,0.06,1273.0,1.0,0.0,Y,623.0,1.0,N,78.0,,,61.0,http://dx.doi.org/10.1016/j.matlet.2017.04.039
Cu-0.1Cr-0.06Zr,Cu low alloyed,99.84,0.0,0.0,0.0,0.0,0,0.0,0.0,0.1,0.0,0,0,0.0,0,0,0,0,0.0,0.0,0,0,0.0,0.0,0.0,0.0,0.0,0.06,1273.0,1.0,0.0,Y,773.0,1.0,N,112.0,,,78.0,http://dx.doi.org/10.1016/j.matlet.2017.04.039
Cu-0.5Cr-0.08Zr,Cu low alloyed,99.42,0.0,0.0,0.0,0.0,0,0.0,0.0,0.5,0.0,0,0,0.0,0,0,0,0,0.0,0.0,0,0,0.0,0.0,0.0,0.0,0.0,0.08,1273.0,1.0,0.0,Y,373.0,1.0,N,76.0,,,38.0,http://dx.doi.org/10.1016/j.matlet.2017.04.039
Cu-0.5Cr-0.08Zr,Cu low alloyed,99.42,0.0,0.0,0.0,0.0,0,0.0,0.0,0.5,0.0,0,0,0.0,0,0,0,0,0.0,0.0,0,0,0.0,0.0,0.0,0.0,0.0,0.08,1273.0,1.0,0.0,Y,573.0,1.0,N,79.0,,,38.0,http://dx.doi.org/10.1016/j.matlet.2017.04.039
Cu-0.5Cr-0.08Zr,Cu low alloyed,99.42,0.0,0.0,0.0,0.0,0,0.0,0.0,0.5,0.0,0,0,0.0,0,0,0,0,0.0,0.0,0,0,0.0,0.0,0.0,0.0,0.0,0.08,1273.0,1.0,0.0,Y,723.0,1.0,N,105.0,,,61.0,http://dx.doi.org/10.1016/j.matlet.2017.04.039
Cu-1Cr-0.1Zr,Cu low alloyed,98.9,0.0,0.0,0.0,0.0,0,0.0,0.0,1.0,0.0,0,0,0.0,0,0,0,0,0.0,0.0,0,0,0.0,0.0,0.0,0.0,0.0,0.1,1273.0,1.0,0.0,N,,,N,81.0,,,37.0,http://dx.doi.org/10.1016/j.matlet.2017.04.039
Cu-1Cr-0.1Zr,Cu low alloyed,98.9,0.0,0.0,0.0,0.0,0,0.0,0.0,1.0,0.0,0,0,0.0,0,0,0,0,0.0,0.0,0,0,0.0,0.0,0.0,0.0,0.0,0.1,1273.0,1.0,0.0,Y,523.0,1.0,N,81.0,,,38.0,http://dx.doi.org/10.1016/j.matlet.2017.04.039
Cu-1Cr-0.1Zr,Cu low alloyed,98.9,0.0,0.0,0.0,0.0,0,0.0,0.0,1.0,0.0,0,0,0.0,0,0,0,0,0.0,0.0,0,0,0.0,0.0,0.0,0.0,0.0,0.1,1273.0,1.0,0.0,Y,673.0,1.0,N,92.0,,,42.0,http://dx.doi.org/10.1016/j.matlet.2017.04.039
Cu-1Cr-0.1Zr,Cu low alloyed,98.9,0.0,0.0,0.0,0.0,0,0.0,0.0,1.0,0.0,0,0,0.0,0,0,0,0,0.0,0.0,0,0,0.0,0.0,0.0,0.0,0.0,0.1,1273.0,1.0,0.0,Y,823.0,1.0,N,145.0,,,83.0,http://dx.doi.org/10.1016/j.matlet.2017.04.039
Cu-0.3Cr-0.5Zr,Cu low alloyed,99.2,0.0,0.0,0.0,0.0,0,0.0,0.0,0.3,0.0,0,0,0.0,0,0,0,0,0.0,0.0,0,0,0.0,0.0,0.0,0.0,0.0,0.5,1273.0,1.0,0.0,Y,473.0,1.0,N,84.0,,,32.0,http://dx.doi.org/10.1016/j.matlet.2017.04.039
Cu-0.3Cr-0.5Zr,Cu low alloyed,99.2,0.0,0.0,0.0,0.0,0,0.0,0.0,0.3,0.0,0,0,0.0,0,0,0,0,0.0,0.0,0,0,0.0,0.0,0.0,0.0,0.0,0.5,1273.0,1.0,0.0,Y,623.0,1.0,N,87.0,,,36.0,http://dx.doi.org/10.1016/j.matlet.2017.04.039
Cu-0.3Cr-0.5Zr,Cu low alloyed,99.2,0.0,0.0,0.0,0.0,0,0.0,0.0,0.3,0.0,0,0,0.0,0,0,0,0,0.0,0.0,0,0,0.0,0.0,0.0,0.0,0.0,0.5,1273.0,1.0,0.0,Y,773.0,1.0,N,157.0,,,65.0,http://dx.doi.org/10.1016/j.matlet.2017.04.039
Cu-0.5Zr-0.065B,Cu low alloyed,99.435,0.0,0.0,0.065,0.0,0,0.0,0.0,0.0,0.0,0,0,0.0,0,0,0,0,0.0,0.0,0,0,0.0,0.0,0.0,0.0,0.0,0.5,1208.0,1.0,80.0,Y,603.0,1.0,N,,,502.0,72.0,https://doi.org/10.1016/j.jallcom.2014.07.010
Cu-0.5Zr-0.065B,Cu low alloyed,99.435,0.0,0.0,0.065,0.0,0,0.0,0.0,0.0,0.0,0,0,0.0,0,0,0,0,0.0,0.0,0,0,0.0,0.0,0.0,0.0,0.0,0.5,1208.0,1.0,80.0,Y,603.0,6.0,N,,,520.0,74.0,https://doi.org/10.1016/j.jallcom.2014.07.010
Cu-0.5Zr-0.065B,Cu low alloyed,99.435,0.0,0.0,0.065,0.0,0,0.0,0.0,0.0,0.0,0,0,0.0,0,0,0,0,0.0,0.0,0,0,0.0,0.0,0.0,0.0,0.0,0.5,1208.0,1.0,80.0,Y,633.0,2.0,N,,,524.0,77.0,https://doi.org/10.1016/j.jallcom.2014.07.010
Cu-0.5Zr-0.065B,Cu low alloyed,99.435,0.0,0.0,0.065,0.0,0,0.0,0.0,0.0,0.0,0,0,0.0,0,0,0,0,0.0,0.0,0,0,0.0,0.0,0.0,0.0,0.0,0.5,1208.0,1.0,80.0,Y,633.0,10.0,N,,,507.0,79.0,https://doi.org/10.1016/j.jallcom.2014.07.010
Cu-0.5Zr-0.065B,Cu low alloyed,99.435,0.0,0.0,0.065,0.0,0,0.0,0.0,0.0,0.0,0,0,0.0,0,0,0,0,0.0,0.0,0,0,0.0,0.0,0.0,0.0,0.0,0.5,1208.0,1.0,80.0,Y,663.0,4.0,N,,,524.0,78.0,https://doi.org/10.1016/j.jallcom.2014.07.010
Cu-0.5Zr-0.065B,Cu low alloyed,99.435,0.0,0.0,0.065,0.0,0,0.0,0.0,0.0,0.0,0,0,0.0,0,0,0,0,0.0,0.0,0,0,0.0,0.0,0.0,0.0,0.0,0.5,1208.0,1.0,80.0,Y,693.0,1.0,N,,,524.0,78.0,https://doi.org/10.1016/j.jallcom.2014.07.010
Cu-0.5Zr-0.065B,Cu low alloyed,99.435,0.0,0.0,0.065,0.0,0,0.0,0.0,0.0,0.0,0,0,0.0,0,0,0,0,0.0,0.0,0,0,0.0,0.0,0.0,0.0,0.0,0.5,1208.0,1.0,80.0,Y,693.0,6.0,N,,,507.0,80.0,https://doi.org/10.1016/j.jallcom.2014.07.010
Cu-0.5Zr-0.065B,Cu low alloyed,99.435,0.0,0.0,0.065,0.0,0,0.0,0.0,0.0,0.0,0,0,0.0,0,0,0,0,0.0,0.0,0,0,0.0,0.0,0.0,0.0,0.0,0.5,1208.0,1.0,80.0,Y,723.0,2.0,N,,,534.0,79.0,https://doi.org/10.1016/j.jallcom.2014.07.010
Cu-0.5Zr-0.065B,Cu low alloyed,99.435,0.0,0.0,0.065,0.0,0,0.0,0.0,0.0,0.0,0,0,0.0,0,0,0,0,0.0,0.0,0,0,0.0,0.0,0.0,0.0,0.0,0.5,1208.0,1.0,80.0,Y,723.0,10.0,N,,,493.0,80.0,https://doi.org/10.1016/j.jallcom.2014.07.010
Cu-0.5Zr-0.065B,Cu low alloyed,99.435,0.0,0.0,0.065,0.0,0,0.0,0.0,0.0,0.0,0,0,0.0,0,0,0,0,0.0,0.0,0,0,0.0,0.0,0.0,0.0,0.0,0.5,1208.0,1.0,80.0,Y,743.0,4.0,N,,,515.0,80.0,https://doi.org/10.1016/j.jallcom.2014.07.010
Cu-0.5Zr-0.065B,Cu low alloyed,99.435,0.0,0.0,0.065,0.0,0,0.0,0.0,0.0,0.0,0,0,0.0,0,0,0,0,0.0,0.0,0,0,0.0,0.0,0.0,0.0,0.0,0.5,1208.0,1.0,80.0,N,,,N,,353.0,490.0,65.0,https://doi.org/10.1016/j.jallcom.2014.07.010
Cu-0.5Zr-0.065B,Cu low alloyed,99.435,0.0,0.0,0.065,0.0,0,0.0,0.0,0.0,0.0,0,0,0.0,0,0,0,0,0.0,0.0,0,0,0.0,0.0,0.0,0.0,0.0,0.5,1208.0,1.0,80.0,Y,743.0,2.0,Y,,470.0,551.0,81.0,https://doi.org/10.1016/j.jallcom.2014.07.010
[...]
Cu-3.2Ti,Cu-Ti alloys,96.8,0.0,0.0,0.0,0.0,0,0.0,0.0,0.0,0.0,0,0,0.0,0,0,0,0,0.0,0.0,0,0,0.0,0.0,3.2,0.0,0.0,0.0,1223.0,0.25,30.0,Y,653.0,72.0,N,,,923.0,19.0,https://doi.org/10.2320/matertrans.M2011173
Cu-3.2Ti,Cu-Ti alloys,96.8,0.0,0.0,0.0,0.0,0,0.0,0.0,0.0,0.0,0,0,0.0,0,0,0,0,0.0,0.0,0,0,0.0,0.0,3.2,0.0,0.0,0.0,1223.0,0.25,60.0,Y,653.0,144.0,N,,,813.0,41.0,https://doi.org/10.2320/matertrans.M2011173
Cu-2.7Ti-0.15Mg-0.1Ce-0.1Zr,Cu-Ti alloys,96.95,0.0,0.0,0.0,0.0,0,0.0,0.1,0.0,0.0,0,0,0.15,0,0,0,0,0.0,0.0,0,0,0.0,0.0,2.7,0.0,0.0,0.1,1123.0,2.0,90.0,Y,673.0,2.0,N,322.0,,,13.0,https://doi.org/10.1016/j.msea.2015.10.062
Cu-2.7Ti-0.15Mg-0.1Ce-0.1Zr,Cu-Ti alloys,96.95,0.0,0.0,0.0,0.0,0,0.0,0.1,0.0,0.0,0,0,0.15,0,0,0,0,0.0,0.0,0,0,0.0,0.0,2.7,0.0,0.0,0.1,1123.0,2.0,50.0,Y,673.0,4.0,Y,335.0,,,20.0,https://doi.org/10.1016/j.msea.2015.10.062
Cu-2.7Ti-0.15Mg-0.1Ce-0.1Zr,Cu-Ti alloys,96.95,0.0,0.0,0.0,0.0,0,0.0,0.1,0.0,0.0,0,0,0.15,0,0,0,0,0.0,0.0,0,0,0.0,0.0,2.7,0.0,0.0,0.1,1123.0,2.0,90.0,N,,,Y,316.0,,,11.0,https://doi.org/10.1016/j.msea.2015.10.062
Cu-2.7Ti-0.15Mg-0.1Ce-0.1Zr,Cu-Ti alloys,96.95,0.0,0.0,0.0,0.0,0,0.0,0.1,0.0,0.0,0,0,0.15,0,0,0,0,0.0,0.0,0,0,0.0,0.0,2.7,0.0,0.0,0.1,1123.0,2.0,0.0,Y,723.0,8.0,N,242.0,,,15.0,https://doi.org/10.1016/j.msea.2015.10.062
Cu-4.5Ti,Cu-Ti alloys,95.5,0.0,0.0,0.0,0.0,0,0.0,0.0,0.0,0.0,0,0,0.0,0,0,0,0,0.0,0.0,0,0,0.0,0.0,4.5,0.0,0.0,0.0,1173.0,2.0,0.0,N,,,N,245.0,440.0,680.0,8.0,https://doi.org/10.1023/A:1004603906359
Cu-1.5Ti,Cu-Ti alloys,98.5,0.0,0.0,0.0,0.0,0,0.0,0.0,0.0,0.0,0,0,0.0,0,0,0,0,0.0,0.0,0,0,0.0,0.0,1.5,0.0,0.0,0.0,1173.0,2.0,90.0,Y,673.0,6.0,N,280.0,670.0,760.0,22.0,https://doi.org/10.1023/A:1004603906359
Cu-6.17Ti-0.33Cr-0.16Mg,Cu-Ti alloys,93.34,0.0,0.0,0.0,0.0,0,0.0,0.0,0.33,0.0,0,0,0.16,0,0,0,0,0.0,0.0,0,0,0.0,0.0,6.17,0.0,0.0,0.0,1123.0,24.0,60.0,Y,723.0,4.0,N,326.0,,,16.0,https://doi.org/10.1016/j.msea.2021.141581
Cu-3Ti-2Mg,Cu-Ti alloys,95.0,0.0,0.0,0.0,0.0,0,0.0,0.0,0.0,0.0,0,0,2.0,0,0,0,0,0.0,0.0,0,0,0.0,0.0,3.0,0.0,0.0,0.0,1023.0,4.0,50.0,N,,,N,199.0,,,5.0,https://doi.org/10.1016/j.jallcom.2019.152915
Cu-1.95Be,Cu-Be alloys,92.95,0.0,0.0,0.0,1.95,0,0.0,0.0,0.0,0.0,0,0,2.0,0,0,0,0,0.1,0.0,0,0,0.0,0.0,3.0,0.0,0.0,0.0,1193.0,,0.0,Y,593.0,10.0,N,360.0,1156.0,1348.0,24.0,https://doi.org/10.1016/j.msea.2019.138592
Cu-1.7Be,Cu-Be alloys,92.57,0.13,0.0,0.0,1.66,0,0.0,0.0,0.0,0.0,0,0,2.0,0,0,0,0,0.33,0.0,0,0,0.31,0.0,3.0,0.0,0.0,0.0,1053.0,0.17,0.0,Y,573.0,3.0,N,352.0,,,20.0,https://doi.org/10.1016/j.jallcom.2018.09.296
Cu-1.7Be,Cu-Be alloys,92.57,0.13,0.0,0.0,1.66,0,0.0,0.0,0.0,0.0,0,0,2.0,0,0,0,0,0.33,0.0,0,0,0.31,0.0,3.0,0.0,0.0,0.0,1053.0,0.17,0.0,Y,598.0,3.0,N,375.0,779.0,1050.0,22.0,https://doi.org/10.1016/j.jallcom.2018.09.296
Cu-1.7Be,Cu-Be alloys,92.57,0.13,0.0,0.0,1.66,0,0.0,0.0,0.0,0.0,0,0,2.0,0,0,0,0,0.33,0.0,0,0,0.31,0.0,3.0,0.0,0.0,0.0,1053.0,0.17,0.0,Y,623.0,3.0,N,347.0,,,26.0,https://doi.org/10.1016/j.jallcom.2018.09.296
Cu-1.7Be,Cu-Be alloys,92.57,0.13,0.0,0.0,1.66,0,0.0,0.0,0.0,0.0,0,0,2.0,0,0,0,0,0.33,0.0,0,0,0.31,0.0,3.0,0.0,0.0,0.0,1053.0,0.17,0.0,Y,648.0,3.0,N,311.0,,,27.0,https://doi.org/10.1016/j.jallcom.2018.09.296
Cu-2Be,Cu-Be alloys,98.0,0.0,0.0,0.0,2.0,0,0.0,0.0,0.0,0.0,0,0,0.0,0,0,0,0,0.0,0.0,0,0,0.0,0.0,0.0,0.0,0.0,0.0,1073.0,,0.0,Y,593.0,8.0,N,,1164.0,1372.0,22.0,http://dx.doi.org/10.1016/j.msea.2012.08.007
Cu-2Be,Cu-Be alloys,98.0,0.0,0.0,0.0,2.0,0,0.0,0.0,0.0,0.0,0,0,0.0,0,0,0,0,0.0,0.0,0,0,0.0,0.0,0.0,0.0,0.0,0.0,1073.0,,0.0,Y,593.0,16.0,N,,1070.0,1225.0,24.0,http://dx.doi.org/10.1016/j.msea.2012.08.007

File: Cu_alloys_database_2023_06_06.csv
Alloy formula;Alloy class;Cu;Al;Ag;B;Be;Ca;Co;Ce;Cr;Fe;Hf;La;Mg;Mn;Mo;Nb;Nd;Ni;P;Pb;Pr;Si;Sn;Ti;V;Zn;Zr;Tss (K);tss (h);CR reduction (%);Aging;Tag (K);tag (h);Secondary thermo-mechanical process;Hardness (HV);Yield strength (MPa);Ultimate tensile strength (MPa);Electrical conductivity (%IACS);DOI
Cu-0.1Ag–0.3Cr;Cu low alloyed;99.6;0;0.1;0;0;0;0;0;0.3;0;0;0;0;0;0;0;0;0;0;0;0;0;0;0;0;0;0;1223;1;0;N;;;N;85;;;45;http://dx.doi.org/10.1016/j.msea.2005.09.118
Cu-0.1Ag–0.3Cr;Cu low alloyed;99.6;0;0.1;0;0;0;0;0;0.3;0;0;0;0;0;0;0;0;0;0;0;0;0;0;0;0;0;0;1223;1;0;Y;673;0.25;N;87;;;45;http://dx.doi.org/10.1016/j.msea.2005.09.118
Cu-0.1Ag–0.3Cr;Cu low alloyed;99.6;0;0.1;0;0;0;0;0;0.3;0;0;0;0;0;0;0;0;0;0;0;0;0;0;0;0;0;0;1223;1;0;Y;673;0.5;N;88;;;47;http://dx.doi.org/10.1016/j.msea.2005.09.118
Cu-0.1Ag–0.3Cr;Cu low alloyed;99.6;0;0.1;0;0;0;0;0;0.3;0;0;0;0;0;0;0;0;0;0;0;0;0;0;0;0;0;0;1223;1;0;Y;673;1;N;92;;;50;http://dx.doi.org/10.1016/j.msea.2005.09.118
Cu-0.1Ag–0.3Cr;Cu low alloyed;99.6;0;0.1;0;0;0;0;0;0.3;0;0;0;0;0;0;0;0;0;0;0;0;0;0;0;0;0;0;1223;1;0;Y;673;2;N;100;;;59;http://dx.doi.org/10.1016/j.msea.2005.09.118
Cu-0.1Ag–0.3Cr;Cu low alloyed;99.6;0;0.1;0;0;0;0;0;0.3;0;0;0;0;0;0;0;0;0;0;0;0;0;0;0;0;0;0;1223;1;0;Y;673;4;N;112;;;74;http://dx.doi.org/10.1016/j.msea.2005.09.118
Cu-0.1Ag–0.3Cr;Cu low alloyed;99.6;0;0.1;0;0;0;0;0;0.3;0;0;0;0;0;0;0;0;0;0;0;0;0;0;0;0;0;0;1223;1;0;Y;673;8;N;120;;;78;http://dx.doi.org/10.1016/j.msea.2005.09.118
Cu-0.1Ag–0.3Cr;Cu low alloyed;99.6;0;0.1;0;0;0;0;0;0.3;0;0;0;0;0;0;0;0;0;0;0;0;0;0;0;0;0;0;1223;1;0;Y;673;16;N;126;;;80;http://dx.doi.org/10.1016/j.msea.2005.09.118
Cu-0.1Ag–0.3Cr;Cu low alloyed;99.6;0;0.1;0;0;0;0;0;0.3;0;0;0;0;0;0;0;0;0;0;0;0;0;0;0;0;0;0;1223;1;0;Y;723;0.25;N;101;;;55;http://dx.doi.org/10.1016/j.msea.2005.09.118
Cu-0.1Ag–0.3Cr;Cu low alloyed;99.6;0;0.1;0;0;0;0;0;0.3;0;0;0;0;0;0;0;0;0;0;0;0;0;0;0;0;0;0;1223;1;0;Y;723;0.5;N;124;;;66;http://dx.doi.org/10.1016/j.msea.2005.09.118
Cu-0.1Ag–0.3Cr;Cu low alloyed;99.6;0;0.1;0;0;0;0;0;0.3;0;0;0;0;0;0;0;0;0;0;0;0;0;0;0;0;0;0;1223;1;0;Y;723;1;N;132;;;78;http://dx.doi.org/10.1016/j.msea.2005.09.118
Cu-0.1Ag–0.3Cr;Cu low alloyed;99.6;0;0.1;0;0;0;0;0;0.3;0;0;0;0;0;0;0;0;0;0;0;0;0;0;0;0;0;0;1223;1;0;Y;723;2;N;138;;;81;http://dx.doi.org/10.1016/j.msea.2005.09.118
Cu-0.1Ag–0.3Cr;Cu low alloyed;99.6;0;0.1;0;0;0;0;0;0.3;0;0;0;0;0;0;0;0;0;0;0;0;0;0;0;0;0;0;1223;1;0;Y;723;4;N;144;;;82;http://dx.doi.org/10.1016/j.msea.2005.09.118
Cu-0.1Ag–0.3Cr;Cu low alloyed;99.6;0;0.1;0;0;0;0;0;0.3;0;0;0;0;0;0;0;0;0;0;0;0;0;0;0;0;0;0;1223;1;0;Y;723;8;N;140;;;83;http://dx.doi.org/10.1016/j.msea.2005.09.118
Cu-0.1Ag–0.3Cr;Cu low alloyed;99.6;0;0.1;0;0;0;0;0;0.3;0;0;0;0;0;0;0;0;0;0;0;0;0;0;0;0;0;0;1223;1;0;Y;723;16;N;134;;;84;http://dx.doi.org/10.1016/j.msea.2005.09.118
Cu-0.1Ag–0.3Cr;Cu low alloyed;99.6;0;0.1;0;0;0;0;0;0.3;0;0;0;0;0;0;0;0;0;0;0;0;0;0;0;0;0;0;1223;1;0;Y;823;0.25;N;115;;;81;http://dx.doi.org/10.1016/j.msea.2005.09.118
Cu-0.1Ag–0.3Cr;Cu low alloyed;99.6;0;0.1;0;0;0;0;0;0.3;0;0;0;0;0;0;0;0;0;0;0;0;0;0;0;0;0;0;1223;1;0;Y;823;0.5;N;127;;;84;http://dx.doi.org/10.1016/j.msea.2005.09.118
Cu-0.1Ag–0.3Cr;Cu low alloyed;99.6;0;0.1;0;0;0;0;0;0.3;0;0;0;0;0;0;0;0;0;0;0;0;0;0;0;0;0;0;1223;1;0;Y;823;1;N;124;;;84;http://dx.doi.org/10.1016/j.msea.2005.09.118
Cu-0.1Ag–0.3Cr;Cu low alloyed;99.6;0;0.1;0;0;0;0;0;0.3;0;0;0;0;0;0;0;0;0;0;0;0;0;0;0;0;0;0;1223;1;0;Y;823;2;N;120;;;84;http://dx.doi.org/10.1016/j.msea.2005.09.118
Cu-0.1Ag–0.3Cr;Cu low alloyed;99.6;0;0.1;0;0;0;0;0;0.3;0;0;0;0;0;0;0;0;0;0;0;0;0;0;0;0;0;0;1223;1;0;Y;823;4;N;115;;;85;http://dx.doi.org/10.1016/j.msea.2005.09.118
Cu-0.1Ag–0.3Cr;Cu low alloyed;99.6;0;0.1;0;0;0;0;0;0.3;0;0;0;0;0;0;0;0;0;0;0;0;0;0;0;0;0;0;1223;1;0;Y;823;8;N;110;;;85;http://dx.doi.org/10.1016/j.msea.2005.09.118
Cu-0.1Ag–0.3Cr;Cu low alloyed;99.6;0;0.1;0;0;0;0;0;0.3;0;0;0;0;0;0;0;0;0;0;0;0;0;0;0;0;0;0;1223;1;0;Y;823;16;N;103;;;86;http://dx.doi.org/10.1016/j.msea.2005.09.118
Cu-0.1Cr-0.06Zr;Cu low alloyed;99.84;0;0;0;0;0;0;0;0.1;0;0;0;0;0;0;0;0;0;0;0;0;0;0;0;0;0;0.06;1273;1;0;N;;;N;71;;;60;http://dx.doi.org/10.1016/j.matlet.2017.04.039
Cu-0.1Cr-0.06Zr;Cu low alloyed;99.84;0;0;0;0;0;0;0;0.1;0;0;0;0;0;0;0;0;0;0;0;0;0;0;0;0;0;0.06;1273;1;0;Y;373;1;N;68;;;58;http://dx.doi.org/10.1016/j.matlet.2017.04.039
Cu-0.1Cr-0.06Zr;Cu low alloyed;99.84;0;0;0;0;0;0;0;0.1;0;0;0;0;0;0;0;0;0;0;0;0;0;0;0;0;0;0.06;1273;1;0;Y;473;1;N;78;;;59;http://dx.doi.org/10.1016/j.matlet.2017.04.039
Cu-0.1Cr-0.06Zr;Cu low alloyed;99.84;0;0;0;0;0;0;0;0.1;0;0;0;0;0;0;0;0;0;0;0;0;0;0;0;0;0;0.06;1273;1;0;Y;523;1;N;78;;;59;http://dx.doi.org/10.1016/j.matlet.2017.04.039
Cu-0.1Cr-0.06Zr;Cu low alloyed;99.84;0;0;0;0;0;0;0;0.1;0;0;0;0;0;0;0;0;0;0;0;0;0;0;0;0;0;0.06;1273;1;0;Y;573;1;N;72;;;59;http://dx.doi.org/10.1016/j.matlet.2017.04.039
Cu-0.1Cr-0.06Zr;Cu low alloyed;99.84;0;0;0;0;0;0;0;0.1;0;0;0;0;0;0;0;0;0;0;0;0;0;0;0;0;0;0.06;1273;1;0;Y;623;1;N;78;;;61;http://dx.doi.org/10.1016/j.matlet.2017.04.039
Cu-0.1Cr-0.06Zr;Cu low alloyed;99.84;0;0;0;0;0;0;0;0.1;0;0;0;0;0;0;0;0;0;0;0;0;0;0;0;0;0;0.06;1273;1;0;Y;673;1;N;80;;;63;http://dx.doi.org/10.1016/j.matlet.2017.04.039
Cu-0.1Cr-0.06Zr;Cu low alloyed;99.84;0;0;0;0;0;0;0;0.1;0;0;0;0;0;0;0;0;0;0;0;0;0;0;0;0;0;0.06;1273;1;0;Y;723;1;N;96;;;67;http://dx.doi.org/10.1016/j.matlet.2017.04.039
Cu-0.1Cr-0.06Zr;Cu low alloyed;99.84;0;0;0;0;0;0;0;0.1;0;0;0;0;0;0;0;0;0;0;0;0;0;0;0;0;0;0.06;1273;1;0;Y;773;1;N;112;;;78;http://dx.doi.org/10.1016/j.matlet.2017.04.039
Cu-0.1Cr-0.06Zr;Cu low alloyed;99.84;0;0;0;0;0;0;0;0.1;0;0;0;0;0;0;0;0;0;0;0;0;0;0;0;0;0;0.06;1273;1;0;Y;823;1;N;116;;;92;http://dx.doi.org/10.1016/j.matlet.2017.04.039
Cu-0.5Cr-0.08Zr;Cu low alloyed;99.42;0;0;0;0;0;0;0;0.5;0;0;0;0;0;0;0;0;0;0;0;0;0;0;0;0;0;0.08;1273;1;0;N;;;N;82;;;39;http://dx.doi.org/10.1016/j.matlet.2017.04.039
Cu-0.5Cr-0.08Zr;Cu low alloyed;99.42;0;0;0;0;0;0;0;0.5;0;0;0;0;0;0;0;0;0;0;0;0;0;0;0;0;0;0.08;1273;1;0;Y;373;1;N;76;;;38;http://dx.doi.org/10.1016/j.matlet.2017.04.039
Cu-0.5Cr-0.08Zr;Cu low alloyed;99.42;0;0;0;0;0;0;0;0.5;0;0;0;0;0;0;0;0;0;0;0;0;0;0;0;0;0;0.08;1273;1;0;Y;473;1;N;75;;;37;http://dx.doi.org/10.1016/j.matlet.2017.04.039
Cu-0.5Cr-0.08Zr;Cu low alloyed;99.42;0;0;0;0;0;0;0;0.5;0;0;0;0;0;0;0;0;0;0;0;0;0;0;0;0;0;0.08;1273;1;0;Y;523;1;N;75;;;37;http://dx.doi.org/10.1016/j.matlet.2017.04.039
Cu-0.5Cr-0.08Zr;Cu low alloyed;99.42;0;0;0;0;0;0;0;0.5;0;0;0;0;0;0;0;0;0;0;0;0;0;0;0;0;0;0.08;1273;1;0;Y;573;1;N;79;;;38;http://dx.doi.org/10.1016/j.matlet.2017.04.039
Cu-0.5Cr-0.08Zr;Cu low alloyed;99.42;0;0;0;0;0;0;0;0.5;0;0;0;0;0;0;0;0;0;0;0;0;0;0;0;0;0;0.08;1273;1;0;Y;623;1;N;80;;;39;http://dx.doi.org/10.1016/j.matlet.2017.04.039
Cu-0.5Cr-0.08Zr;Cu low alloyed;99.42;0;0;0;0;0;0;0;0.5;0;0;0;0;0;0;0;0;0;0;0;0;0;0;0;0;0;0.08;1273;1;0;Y;673;1;N;76;;;40;http://dx.doi.org/10.1016/j.matlet.2017.04.039
Cu-0.5Cr-0.08Zr;Cu low alloyed;99.42;0;0;0;0;0;0;0;0.5;0;0;0;0;0;0;0;0;0;0;0;0;0;0;0;0;0;0.08;1273;1;0;Y;723;1;N;105;;;61;http://dx.doi.org/10.1016/j.matlet.2017.04.039
Cu-0.5Cr-0.08Zr;Cu low alloyed;99.42;0;0;0;0;0;0;0;0.5;0;0;0;0;0;0;0;0;0;0;0;0;0;0;0;0;0;0.08;1273;1;0;Y;773;1;N;155;;;74;http://dx.doi.org/10.1016/j.matlet.2017.04.039
Cu-0.5Cr-0.08Zr;Cu low alloyed;99.42;0;0;0;0;0;0;0;0.5;0;0;0;0;0;0;0;0;0;0;0;0;0;0;0;0;0;0.08;1273;1;0;Y;823;1;N;141;;;85;http://dx.doi.org/10.1016/j.matlet.2017.04.039
[...]
Cu-1.7Be;Cu-Be alloys;92.57;0.13;0;0;1.66;0;0;0;0;0;0;0;2;0;0;0;0;0.33;0;0;0;0.31;0;3;0;0;0;1053;0.17;0;Y;623;0;N;116;;;18;https://doi.org/10.1016/j.jallcom.2018.09.296
Cu-1.7Be;Cu-Be alloys;92.57;0.13;0;0;1.66;0;0;0;0;0;0;0;2;0;0;0;0;0.33;0;0;0;0.31;0;3;0;0;0;1053;0.17;0;Y;623;0.5;N;341;;;21;https://doi.org/10.1016/j.jallcom.2018.09.296
Cu-1.7Be;Cu-Be alloys;92.57;0.13;0;0;1.66;0;0;0;0;0;0;0;2;0;0;0;0;0.33;0;0;0;0.31;0;3;0;0;0;1053;0.17;0;Y;623;1;N;348;;;22;https://doi.org/10.1016/j.jallcom.2018.09.296
Cu-1.7Be;Cu-Be alloys;92.57;0.13;0;0;1.66;0;0;0;0;0;0;0;2;0;0;0;0;0.33;0;0;0;0.31;0;3;0;0;0;1053;0.17;0;Y;623;2;N;357;;;23;https://doi.org/10.1016/j.jallcom.2018.09.296
Cu-1.7Be;Cu-Be alloys;92.57;0.13;0;0;1.66;0;0;0;0;0;0;0;2;0;0;0;0;0.33;0;0;0;0.31;0;3;0;0;0;1053;0.17;0;Y;623;3;N;347;;;26;https://doi.org/10.1016/j.jallcom.2018.09.296
Cu-1.7Be;Cu-Be alloys;92.57;0.13;0;0;1.66;0;0;0;0;0;0;0;2;0;0;0;0;0.33;0;0;0;0.31;0;3;0;0;0;1053;0.17;0;Y;623;4;N;309;;;27;https://doi.org/10.1016/j.jallcom.2018.09.296
Cu-1.7Be;Cu-Be alloys;92.57;0.13;0;0;1.66;0;0;0;0;0;0;0;2;0;0;0;0;0.33;0;0;0;0.31;0;3;0;0;0;1053;0.17;0;Y;623;8;N;300;;;29;https://doi.org/10.1016/j.jallcom.2018.09.296
Cu-1.7Be;Cu-Be alloys;92.57;0.13;0;0;1.66;0;0;0;0;0;0;0;2;0;0;0;0;0.33;0;0;0;0.31;0;3;0;0;0;1053;0.17;0;Y;623;16;N;297;;;30;https://doi.org/10.1016/j.jallcom.2018.09.296
Cu-1.7Be;Cu-Be alloys;92.57;0.13;0;0;1.66;0;0;0;0;0;0;0;2;0;0;0;0;0.33;0;0;0;0.31;0;3;0;0;0;1053;0.17;0;Y;648;0;N;116;;;18;https://doi.org/10.1016/j.jallcom.2018.09.296
Cu-1.7Be;Cu-Be alloys;92.57;0.13;0;0;1.66;0;0;0;0;0;0;0;2;0;0;0;0;0.33;0;0;0;0.31;0;3;0;0;0;1053;0.17;0;Y;648;0.5;N;348;;;22;https://doi.org/10.1016/j.jallcom.2018.09.296
Cu-1.7Be;Cu-Be alloys;92.57;0.13;0;0;1.66;0;0;0;0;0;0;0;2;0;0;0;0;0.33;0;0;0;0.31;0;3;0;0;0;1053;0.17;0;Y;648;1;N;349;;;25;https://doi.org/10.1016/j.jallcom.2018.09.296
Cu-1.7Be;Cu-Be alloys;92.57;0.13;0;0;1.66;0;0;0;0;0;0;0;2;0;0;0;0;0.33;0;0;0;0.31;0;3;0;0;0;1053;0.17;0;Y;648;2;N;329;;;27;https://doi.org/10.1016/j.jallcom.2018.09.296
Cu-1.7Be;Cu-Be alloys;92.57;0.13;0;0;1.66;0;0;0;0;0;0;0;2;0;0;0;0;0.33;0;0;0;0.31;0;3;0;0;0;1053;0.17;0;Y;648;3;N;311;;;27;https://doi.org/10.1016/j.jallcom.2018.09.296
Cu-1.7Be;Cu-Be alloys;92.57;0.13;0;0;1.66;0;0;0;0;0;0;0;2;0;0;0;0;0.33;0;0;0;0.31;0;3;0;0;0;1053;0.17;0;Y;648;4;N;288;;;28;https://doi.org/10.1016/j.jallcom.2018.09.296
Cu-1.7Be;Cu-Be alloys;92.57;0.13;0;0;1.66;0;0;0;0;0;0;0;2;0;0;0;0;0.33;0;0;0;0.31;0;3;0;0;0;1053;0.17;0;Y;648;8;N;274;;;30;https://doi.org/10.1016/j.jallcom.2018.09.296
Cu-2Be;Cu-Be alloys;92.57;0.13;0;0;1.66;0;0;0;0;0;0;0;2;0;0;0;0;0.33;0;0;0;0.31;0;3;0;0;0;1053;0.17;0;Y;648;16;N;269;;;31;https://doi.org/10.1016/j.jallcom.2018.09.296
Cu-2Be;Cu-Be alloys;98;0;0;0;2;0;0;0;0;0;0;0;0;0;0;0;0;0;0;0;0;0;0;0;0;0;0;1073;;0;Y;593;0;N;;211;502;13;http://dx.doi.org/10.1016/j.msea.2012.08.007
Cu-2Be;Cu-Be alloys;98;0;0;0;2;0;0;0;0;0;0;0;0;0;0;0;0;0;0;0;0;0;0;0;0;0;0;1073;;0;Y;593;1;N;;1065;1302;17;http://dx.doi.org/10.1016/j.msea.2012.08.007
Cu-2Be;Cu-Be alloys;98;0;0;0;2;0;0;0;0;0;0;0;0;0;0;0;0;0;0;0;0;0;0;0;0;0;0;1073;;0;Y;593;2;N;;1162;1351;19;http://dx.doi.org/10.1016/j.msea.2012.08.007
Cu-2Be;Cu-Be alloys;98;0;0;0;2;0;0;0;0;0;0;0;0;0;0;0;0;0;0;0;0;0;0;0;0;0;0;1073;;0;Y;593;4;N;;1235;1361;21;http://dx.doi.org/10.1016/j.msea.2012.08.007
Cu-2Be;Cu-Be alloys;98;0;0;0;2;0;0;0;0;0;0;0;0;0;0;0;0;0;0;0;0;0;0;0;0;0;0;1073;;0;Y;593;8;N;;1164;1372;22;http://dx.doi.org/10.1016/j.msea.2012.08.007
Cu-2Be;Cu-Be alloys;98;0;0;0;2;0;0;0;0;0;0;0;0;0;0;0;0;0;0;0;0;0;0;0;0;0;0;1073;;0;Y;593;16;N;;1070;1225;24;http://dx.doi.org/10.1016/j.msea.2012.08.007